Folder: dashboard_maxcoat2/data/dashdata

File: 'EIS#0_maxcoat_ss_coating_#01_EIS_1.1_25A_1,25A_EIS_22-07-30_1250_001.txt
,index,datapoints [#],time [s],frequency [Hz],Z_real [Ohm],Z_imag [Ohm],Z_sig [V],Zmod [ohm],Z_phz [Â°C],I_DC [A],V_DC [V],IE_Range [#]
0,,1.0,50000.05,50097.7,0.006793,0.001196,0.006897,9.989376,,,,
1,,2.0,44562.6,44589.8,0.006779,0.001033,0.006857,8.667318,,,,
2,,3.0,39716.5,39785.2,0.006768,0.000872,0.006824,7.338141,,,,
3,,4.0,35397.3,35449.2,0.006751,0.000718,0.006789,6.069246,,,,
4,,5.0,31547.9,31582,0.006742,0.000542,0.006764,4.600193,,,,
5,,6.0,28117.1,28183.6,0.00677,0.000368,0.00678,3.114638,,,,
6,,7.0,25059.4,25136.7,0.006831,0.000197,0.006834,1.655893,,,,
7,,8.0,22334.2,22441.4,0.006915,0.000103,0.006916,0.852948,,,,
8,,9.0,19905.4,19980.5,0.00698,2.459359e-05,0.00698,0.201887,,,,
9,,10.0,17740.7,17753.9,0.007033,-4.762381e-05,0.007033,-0.387973,,,,
10,,11.0,15811.4,15878.9,0.007092,-9.783055e-05,0.007092,-0.790352,,,,
11,,12.0,14091.9,14121.1,0.007138,-0.000143,0.00714,-1.14624,,,,
12,,13.0,12559.4,12597.7,0.007176,-0.000188,0.007178,-1.50062,,,,
13,,14.0,11193.6,11169,0.007219,-0.000222,0.007222,-1.762518,,,,
14,,15.0,9976.32,10019.5,0.007252,-0.000255,0.007257,-2.012494,,,,
15,,16.0,8891.41,8854.17,0.007286,-0.000294,0.007292,-2.311477,,,,
16,,17.0,7924.47,7928.24,0.007322,-0.000326,0.007329,-2.547577,,,,
17,,18.0,7062.69,7089.84,0.007355,-0.000356,0.007364,-2.773768,,,,
18,,19.0,6294.63,6307.87,0.007391,-0.000388,0.007401,-3.003365,,,,
19,,20.0,5610.1,5613.43,0.007426,-0.00042,0.007438,-3.238802,,,,
20,,21.0,5000.005,4973.32,0.007466,-0.00045,0.007479,-3.450382,,,,
21,,22.0,4456.26,4456.02,0.0075,-0.000479,0.007515,-3.653936,,,,
22,,23.0,3971.65,3993.06,0.007536,-0.000508,0.007553,-3.855078,,,,
23,,24.0,3539.73,3530.09,0.007577,-0.00054,0.007597,-4.07702,,,,
24,,25.0,3154.79,3144.05,0.007617,-0.000571,0.007638,-4.286071,,,,
25,,26.0,2811.71,2801.07,0.00766,-0.000603,0.007684,-4.500178,,,,
26,,27.0,2505.94,2519.53,0.0077,-0.000634,0.007726,-4.703691,,,,
27,,28.0,2233.42,2229.42,0.00775,-0.000668,0.007779,-4.922877,,,,
28,,29.0,1990.54,2000.76,0.007794,-0.000699,0.007825,-5.1212,,,,
29,,30.0,1774.07,1772.1,0.007848,-0.000736,0.007882,-5.358262,,,,
30,,31.0,1581.14,1582.03,0.0079,-0.00077,0.007938,-5.565374,,,,
31,,32.0,1409.19,1411.9,0.007955,-0.000805,0.007996,-5.780106,,,,
32,,33.0,1255.94,1253.63,0.008017,-0.000841,0.008061,-5.991819,,,,
33,,34.0,1119.36,1118.61,0.008078,-0.000879,0.008126,-6.208912,,,,
34,,35.0,997.632,1000.7,0.008142,-0.000914,0.008194,-6.401565,,,,
35,,36.0,889.141,885.417,0.00822,-0.000959,0.008275,-6.652857,,,,
36,,37.0,792.447,790.028,0.008287,-0.000992,0.008346,-6.824823,,,,
37,,38.0,706.269,708.576,0.008361,-0.001023,0.008424,-6.97567,,,,
38,,39.0,629.463,628.811,0.008444,-0.001061,0.00851,-7.158737,,,,
39,,40.0,561.01,560.462,0.00853,-0.001092,0.0086,-7.297348,,,,
40,,41.0,500.0005,502.232,0.008616,-0.001125,0.008689,-7.437607,,,,
41,,42.0,445.626,444.079,0.00871,-0.001156,0.008787,-7.56224,,,,
42,,43.0,397.165,395.331,0.008802,-0.001191,0.008883,-7.706032,,,,
43,,44.0,353.973,352.823,0.008898,-0.001215,0.008981,-7.776449,,,,
44,,45.0,315.479,315.505,0.008996,-0.001239,0.009081,-7.842054,,,,
45,,46.0,281.171,282.38,0.009089,-0.001263,0.009176,-7.909554,,,,
46,,47.0,250.594,249.335,0.0092,-0.001292,0.00929,-7.99274,,,,
47,,48.0,223.342,223.214,0.009304,-0.001307,0.009396,-7.995159,,,,
48,,49.0,199.054,198.623,0.009419,-0.001323,0.009512,-7.99301,,,,
49,,50.0,177.407,177.557,0.009526,-0.001334,0.009619,-7.97319,,,,
50,,51.0,158.114,158.006,0.009638,-0.001344,0.009731,-7.93947,,,,
51,,52.0,140.919,140.625,0.009757,-0.001352,0.009851,-7.891563,,,,
52,,53.0,125.594,125.558,0.009874,-0.001351,0.009966,-7.791884,,,,
53,,54.0,111.936,111.607,0.009993,-0.001344,0.010083,-7.660322,,,,
54,,55.0,99.7632,99.734,0.010111,-0.001333,0.010198,-7.509101,,,,
55,,56.0,88.9141,89.2857,0.010211,-0.00133,0.010297,-7.420215,,,,
56,,57.0,79.2447,79.44915,0.010351,-0.001321,0.010435,-7.270431,,,,
57,,58.0,70.6269,70.4887,0.010462,-0.00128,0.01054,-6.976202,,,,
58,,59.0,62.9463,62.9195,0.01055,-0.001232,0.010621,-6.66164,,,,
59,,60.0,56.101,55.80357,0.010733,-0.001223,0.010803,-6.498393,,,,
60,,61.0,50.00005,49.86702,0.010691,-0.001196,0.010758,-6.383662,,,,
61,,62.0,44.5626,44.6429,0.010871,-0.001076,0.010924,-5.653203,,,,
62,,63.0,39.7165,39.7246,0.010908,-0.001118,0.010966,-5.850873,,,,
63,,64.0,35.3973,35.5114,0.011013,-0.001031,0.011061,-5.346035,,,,
64,,65.0,31.5479,31.4597,0.011054,-0.001051,0.011104,-5.432312,,,,
65,,66.0,28.1171,28.238,0.011201,-0.000933,0.011239,-4.762476,,,,
66,,67.0,25.0594,24.93351,0.011247,-0.000844,0.011278,-4.293267,,,,
67,,68.0,22.3342,22.3214,0.011313,-0.000921,0.011351,-4.656012,,,,
68,,69.0,19.9054,19.8623,0.011248,-0.000902,0.011284,-4.586171,,,,
69,,70.0,17.7407,17.7557,0.011358,-0.000878,0.011392,-4.419938,,,,
70,,71.0,15.8114,15.7828,0.011452,-0.000862,0.011484,-4.303259,,,,
71,,72.0,14.0919,14.119,0.011501,-0.000919,0.011538,-4.569515,,,,
72,,73.0,12.5594,12.6008,0.011591,-0.000903,0.011626,-4.454855,,,,
73,,74.0,11.1936,11.1607,0.011611,-0.000855,0.011643,-4.212547,,,,
74,,75.0,9.976322,9.973404,0.011618,-0.000952,0.011657,-4.68315,,,,
75,,76.0,8.891406,8.877841,0.011739,-0.000834,0.011768,-4.065534,,,,
76,,77.0,7.924474,7.878151,0.011785,-0.000717,0.011807,-3.482335,,,,
77,,78.0,7.062695,7.059488,0.011953,-0.000749,0.011977,-3.585638,,,,
78,,79.0,6.294633,6.2751,0.011988,-0.0007,0.012009,-3.342026,,,,
79,,80.0,5.610098,5.580357,0.01203,-0.00074,0.012052,-3.518651,,,,
80,,81.0,5.000005,5.013369,0.012095,-0.000684,0.012114,-3.238849,,,,
81,,82.0,4.456259,4.451567,0.012141,-0.00065,0.012158,-3.06621,,,,
82,,83.0,3.971645,3.985969,0.012205,-0.000557,0.012218,-2.611546,,,,
83,,84.0,3.539732,3.529744,0.01225,-0.000535,0.012262,-2.499465,,,,
84,,85.0,3.15479,3.13755,0.012295,-0.000471,0.012304,-2.195298,,,,
85,,86.0,2.811709,2.823795,0.012331,-0.000383,0.012337,-1.778058,,,,
86,,87.0,2.505939,2.516103,0.012376,-0.000331,0.01238,-1.533818,,,,
87,,88.0,2.23342,2.225784,0.012376,-0.000295,0.01238,-1.367674,,,,
88,,89.0,1.990538,1.99553,0.012406,-0.00026,0.012408,-1.202362,,,,
89,,90.0,1.774069,1.775568,0.012432,-0.000159,0.012433,-0.733558,,,,
90,,91.0,1.58114,1.583615,0.012408,-0.000129,0.012408,-0.596867,,,,
91,,92.0,1.409193,1.411472,0.012448,-5.158371e-05,0.012448,-0.237437,,,,
92,,93.0,1.255944,1.258052,0.012401,9.618088e-06,0.012401,0.044437,,,,
93,,94.0,1.119362,1.112892,0.012423,8.039104e-05,0.012423,0.370759,,,,
94,,95.0,0.997632,0.997765,0.012385,0.000105,0.012385,0.484385,,,,
95,,96.0,0.889141,0.890313,0.012378,0.00014,0.012379,0.648541,,,,
96,,97.0,0.792447,0.792745,0.012341,0.000234,0.012344,1.086875,,,,
97,,98.0,0.706269,0.705736,0.012271,0.000225,0.012273,1.050119,,,,
98,,99.0,0.629463,0.63004,0.012232,0.000273,0.012235,1.280516,,,,
99,,100.0,0.56101,0.563401,0.012214,0.000309,0.012218,1.450489,,,,
100,,101.0,0.500001,0.500801,0.01214,0.000318,0.012144,1.502516,,,,
101,,102.0,0.445626,0.447281,0.012081,0.000379,0.012087,1.795329,,,,
102,,103.0,0.397165,0.398597,0.012004,0.000361,0.01201,1.724655,,,,
103,,104.0,0.353973,0.355114,0.011988,0.000393,0.011994,1.876823,,,,
104,,105.0,0.315479,0.316723,0.011901,0.000396,0.011907,1.905414,,,,
105,,106.0,0.281171,0.281701,0.011877,0.000413,0.011885,1.993425,,,,
106,,107.0,0.250594,0.251475,0.011828,0.000416,0.011835,2.016346,,,,
107,,108.0,0.223342,0.22364,0.011751,0.00043,0.011758,2.095656,,,,
108,,109.0,0.199054,0.199298,0.011663,0.00042,0.011671,2.063997,,,,
109,,110.0,0.177407,0.177557,0.011615,0.000449,0.011624,2.214871,,,,
110,,111.0,0.158114,0.158361,0.011571,0.000442,0.01158,2.18847,,,,
111,,112.0,0.140919,0.14119,0.011509,0.000459,0.011518,2.282725,,,,
112,,113.0,0.125594,0.125738,0.011443,0.000468,0.011452,2.344511,,,,
113,,114.0,0.111936,0.112034,0.011387,0.000449,0.011396,2.255867,,,,

File: EIS#1_maxcoat_ss_coating_#01_EIS_1.1_25A_1,25A_EIS_22-08-03_1202_001.txt
,index,datapoints [#],time [s],frequency [Hz],Z_real [Ohm],Z_imag [Ohm],Z_sig [V],Zmod [ohm],Z_phz [Â°C],I_DC [A],V_DC [V],IE_Range [#]
0,,1.0,50000.05,50097.7,0.007606,0.001259,0.00771,9.39911,,,,
1,,2.0,44562.6,44589.8,0.007584,0.001096,0.007663,8.225552,,,,
2,,3.0,39716.5,39785.2,0.007555,0.000943,0.007614,7.111289,,,,
3,,4.0,35397.3,35449.2,0.007527,0.000773,0.007567,5.866153,,,,
4,,5.0,31547.9,31582,0.007526,0.000588,0.007549,4.468447,,,,
5,,6.0,28117.1,28183.6,0.007528,0.000406,0.007539,3.084279,,,,
6,,7.0,25059.4,25136.7,0.007582,0.000238,0.007586,1.796316,,,,
7,,8.0,22334.2,22441.4,0.007651,9.835238e-05,0.007651,0.736523,,,,
8,,9.0,19905.4,19980.5,0.007756,2.630927e-05,0.007756,0.194355,,,,
9,,10.0,17740.7,17753.9,0.007809,-4.785662e-05,0.007809,-0.351121,,,,
10,,11.0,15811.4,15878.9,0.00787,-0.000101,0.00787,-0.735214,,,,
11,,12.0,14091.9,14121.1,0.007918,-0.000145,0.007919,-1.048031,,,,
12,,13.0,12559.4,12597.7,0.007967,-0.000188,0.00797,-1.352693,,,,
13,,14.0,11193.6,11169,0.008008,-0.000224,0.008011,-1.599489,,,,
14,,15.0,9976.32,10019.5,0.008042,-0.000259,0.008046,-1.844765,,,,
15,,16.0,8891.41,8854.17,0.008078,-0.000293,0.008084,-2.074521,,,,
16,,17.0,7924.47,7928.24,0.008111,-0.000325,0.008117,-2.293187,,,,
17,,18.0,7062.69,7089.84,0.008143,-0.000355,0.008151,-2.497872,,,,
18,,19.0,6294.63,6307.87,0.008173,-0.000387,0.008182,-2.708237,,,,
19,,20.0,5610.1,5613.43,0.00821,-0.000417,0.008221,-2.907628,,,,
20,,21.0,5000.005,4973.32,0.008248,-0.000447,0.00826,-3.101585,,,,
21,,22.0,4456.26,4456.02,0.008279,-0.000477,0.008292,-3.295929,,,,
22,,23.0,3971.65,3993.06,0.008312,-0.000505,0.008327,-3.475675,,,,
23,,24.0,3539.73,3530.09,0.008349,-0.000539,0.008367,-3.696574,,,,
24,,25.0,3154.79,3144.05,0.008385,-0.000572,0.008405,-3.899645,,,,
25,,26.0,2811.71,2801.07,0.008425,-0.000608,0.008447,-4.125577,,,,
26,,27.0,2505.94,2519.53,0.008462,-0.000639,0.008486,-4.316567,,,,
27,,28.0,2233.42,2229.42,0.008506,-0.000677,0.008533,-4.549566,,,,
28,,29.0,1990.54,2000.76,0.008547,-0.000712,0.008576,-4.762669,,,,
29,,30.0,1774.07,1772.1,0.008596,-0.000754,0.008629,-5.012924,,,,
30,,31.0,1581.14,1582.03,0.008645,-0.000794,0.008681,-5.247153,,,,
31,,32.0,1409.19,1411.9,0.008696,-0.000837,0.008736,-5.500865,,,,
32,,33.0,1255.94,1253.63,0.008753,-0.000883,0.008797,-5.757863,,,,
33,,34.0,1119.36,1118.61,0.008813,-0.000928,0.008862,-6.011027,,,,
34,,35.0,997.632,1000.7,0.008872,-0.000973,0.008925,-6.258225,,,,
35,,36.0,889.141,885.417,0.008944,-0.001024,0.009002,-6.530826,,,,
36,,37.0,792.447,790.028,0.009015,-0.001075,0.009079,-6.799382,,,,
37,,38.0,706.269,708.576,0.009093,-0.00112,0.009162,-7.022162,,,,
38,,39.0,629.463,628.811,0.009175,-0.001167,0.009249,-7.246225,,,,
39,,40.0,561.01,560.462,0.009264,-0.001216,0.009344,-7.475149,,,,
40,,41.0,500.0005,502.232,0.009347,-0.001273,0.009434,-7.756383,,,,
41,,42.0,445.626,444.079,0.009453,-0.001326,0.009546,-7.982177,,,,
42,,43.0,397.165,395.331,0.009555,-0.001374,0.009654,-8.182472,,,,
43,,44.0,353.973,352.823,0.009662,-0.001428,0.009767,-8.407248,,,,
44,,45.0,315.479,315.505,0.00977,-0.001471,0.00988,-8.560037,,,,
45,,46.0,281.171,282.38,0.009883,-0.001519,0.009999,-8.737241,,,,
46,,47.0,250.594,249.335,0.010023,-0.001563,0.010144,-8.862971,,,,
47,,48.0,223.342,223.214,0.010143,-0.001604,0.010269,-8.987411,,,,
48,,49.0,199.054,198.623,0.010275,-0.001642,0.010406,-9.081372,,,,
49,,50.0,177.407,177.557,0.010413,-0.001678,0.010547,-9.152205,,,,
50,,51.0,158.114,158.006,0.010558,-0.001696,0.010693,-9.128421,,,,
51,,52.0,140.919,140.625,0.010713,-0.001735,0.010853,-9.200744,,,,
52,,53.0,125.594,125.558,0.010862,-0.001752,0.011002,-9.164952,,,,
53,,54.0,111.936,111.607,0.011023,-0.001757,0.011162,-9.056945,,,,
54,,55.0,99.7632,99.734,0.011181,-0.001759,0.011318,-8.943044,,,,
55,,56.0,88.9141,89.2857,0.011343,-0.001747,0.011476,-8.757052,,,,
56,,57.0,79.2447,79.44915,0.011482,-0.001739,0.011613,-8.614346,,,,
57,,58.0,70.6269,70.4887,0.011696,-0.001707,0.01182,-8.302369,,,,
58,,59.0,62.9463,62.9195,0.011736,-0.001676,0.011855,-8.126394,,,,
59,,60.0,56.101,55.80357,0.011994,-0.001667,0.012109,-7.912017,,,,
60,,61.0,50.00005,49.86702,0.012122,-0.001564,0.012223,-7.349444,,,,
61,,62.0,44.5626,44.6429,0.012196,-0.001576,0.012297,-7.361416,,,,
62,,63.0,39.7165,39.7246,0.012318,-0.001466,0.012405,-6.787071,,,,
63,,64.0,35.3973,35.5114,0.01239,-0.001429,0.012472,-6.58097,,,,
64,,65.0,31.5479,31.4597,0.012487,-0.001382,0.012563,-6.31531,,,,
65,,66.0,28.1171,28.238,0.012547,-0.001305,0.012615,-5.936341,,,,
66,,67.0,25.0594,24.93351,0.012737,-0.001287,0.012802,-5.768584,,,,
67,,68.0,22.3342,22.3214,0.012751,-0.001227,0.01281,-5.497108,,,,
68,,69.0,19.9054,19.8623,0.01281,-0.001205,0.012866,-5.373802,,,,
69,,70.0,17.7407,17.7557,0.012967,-0.001145,0.013017,-5.046948,,,,
70,,71.0,15.8114,15.7828,0.012945,-0.001163,0.012998,-5.135163,,,,
71,,72.0,14.0919,14.119,0.013064,-0.001111,0.013111,-4.862989,,,,
72,,73.0,12.5594,12.6008,0.013116,-0.001177,0.013169,-5.126242,,,,
73,,74.0,11.1936,11.1607,0.013211,-0.001082,0.013256,-4.682025,,,,
74,,75.0,9.976322,9.973404,0.013259,-0.001113,0.013306,-4.79812,,,,
75,,76.0,8.891406,8.877841,0.01344,-0.001011,0.013478,-4.302958,,,,
76,,77.0,7.924474,7.878151,0.013489,-0.001009,0.013527,-4.276888,,,,
77,,78.0,7.062695,7.059488,0.013621,-0.001031,0.01366,-4.327937,,,,
78,,79.0,6.294633,6.2751,0.013689,-0.000964,0.013723,-4.026397,,,,
79,,80.0,5.610098,5.580357,0.013702,-0.000896,0.013732,-3.741119,,,,
80,,81.0,5.000005,5.013369,0.013778,-0.000851,0.013805,-3.535299,,,,
81,,82.0,4.456259,4.451567,0.013935,-0.000769,0.013956,-3.15683,,,,
82,,83.0,3.971645,3.985969,0.013869,-0.000696,0.013886,-2.871675,,,,
83,,84.0,3.539732,3.529744,0.013988,-0.000601,0.014001,-2.461168,,,,
84,,85.0,3.15479,3.13755,0.014046,-0.000502,0.014055,-2.044803,,,,
85,,86.0,2.811709,2.823795,0.014077,-0.000435,0.014084,-1.769432,,,,
86,,87.0,2.505939,2.516103,0.014082,-0.000389,0.014088,-1.581789,,,,
87,,88.0,2.23342,2.225784,0.014081,-0.000337,0.014086,-1.371402,,,,
88,,89.0,1.990538,1.99553,0.014114,-0.000258,0.014116,-1.049066,,,,
89,,90.0,1.774069,1.775568,0.014064,-0.00017,0.014065,-0.694143,,,,
90,,91.0,1.58114,1.583615,0.014132,-0.000123,0.014132,-0.499813,,,,
91,,92.0,1.409193,1.411472,0.014129,-8.816431e-05,0.01413,-0.357511,,,,
92,,93.0,1.255944,1.258052,0.014076,6.492629e-06,0.014076,0.026428,,,,
93,,94.0,1.119362,1.112892,0.013993,1.25004e-06,0.013993,0.005118,,,,
94,,95.0,0.997632,0.997765,0.013979,0.000104,0.01398,0.425791,,,,
95,,96.0,0.889141,0.890313,0.013984,0.000134,0.013985,0.549427,,,,
96,,97.0,0.792447,0.792745,0.013957,0.000207,0.013959,0.8477,,,,
97,,98.0,0.706269,0.705736,0.013876,0.00021,0.013877,0.868666,,,,
98,,99.0,0.629463,0.63004,0.013842,0.000255,0.013844,1.055085,,,,
99,,100.0,0.56101,0.563401,0.013798,0.000295,0.013801,1.22611,,,,
100,,101.0,0.500001,0.500801,0.013739,0.000323,0.013743,1.348254,,,,
101,,102.0,0.445626,0.447281,0.013738,0.000341,0.013742,1.422512,,,,
102,,103.0,0.397165,0.398597,0.013638,0.000374,0.013643,1.572606,,,,
103,,104.0,0.353973,0.355114,0.013579,0.000426,0.013586,1.795669,,,,
104,,105.0,0.315479,0.316723,0.013541,0.000399,0.013547,1.687461,,,,
105,,106.0,0.281171,0.281701,0.013459,0.000428,0.013466,1.823365,,,,
106,,107.0,0.250594,0.251475,0.01338,0.000437,0.013387,1.870358,,,,
107,,108.0,0.223342,0.22364,0.013334,0.000461,0.013342,1.979862,,,,
108,,109.0,0.199054,0.199298,0.01326,0.000477,0.013268,2.062092,,,,
109,,110.0,0.177407,0.177557,0.013213,0.000471,0.013222,2.043684,,,,
110,,111.0,0.158114,0.158361,0.013122,0.000477,0.013131,2.08124,,,,
111,,112.0,0.140919,0.14119,0.013057,0.000493,0.013067,2.164458,,,,
112,,113.0,0.125594,0.125738,0.012975,0.000508,0.012985,2.240401,,,,
113,,114.0,0.111936,0.112034,0.012889,0.000491,0.012899,2.18051,,,,

File: EIS#2_maxcoat_ss_coating_#01_EIS_1.1_25A_1,25A_EIS_22-08-04_1508_001.txt
,index,datapoints [#],time [s],frequency [Hz],Z_real [Ohm],Z_imag [Ohm],Z_sig [V],Zmod [ohm],Z_phz [Â°C],I_DC [A],V_DC [V],IE_Range [#]
0,,1.0,50000.05,50097.7,0.007483,0.00128,0.007592,9.706228,,,,
1,,2.0,44562.6,44589.8,0.007479,0.001114,0.007561,8.475539,,,,
2,,3.0,39716.5,39785.2,0.00744,0.000952,0.007501,7.29532,,,,
3,,4.0,35397.3,35449.2,0.007415,0.000786,0.007456,6.04973,,,,
4,,5.0,31547.9,31582,0.007399,0.000606,0.007424,4.68199,,,,
5,,6.0,28117.1,28183.6,0.007417,0.000426,0.007429,3.286763,,,,
6,,7.0,25059.4,25136.7,0.007472,0.000256,0.007476,1.962747,,,,
7,,8.0,22334.2,22441.4,0.007577,0.00013,0.007578,0.982188,,,,
8,,9.0,19905.4,19980.5,0.007639,4.663882e-05,0.00764,0.349789,,,,
9,,10.0,17740.7,17753.9,0.007696,-2.862526e-05,0.007696,-0.213112,,,,
10,,11.0,15811.4,15878.9,0.007756,-7.819779e-05,0.007757,-0.577615,,,,
11,,12.0,14091.9,14121.1,0.00781,-0.000125,0.007811,-0.913352,,,,
12,,13.0,12559.4,12597.7,0.007849,-0.00016,0.007851,-1.171126,,,,
13,,14.0,11193.6,11169,0.007891,-0.0002,0.007893,-1.454604,,,,
14,,15.0,9976.32,10019.5,0.007923,-0.000235,0.007927,-1.697851,,,,
15,,16.0,8891.41,8854.17,0.007958,-0.000268,0.007962,-1.92785,,,,
16,,17.0,7924.47,7928.24,0.007993,-0.000303,0.007998,-2.172294,,,,
17,,18.0,7062.69,7089.84,0.008009,-0.00033,0.008016,-2.360769,,,,
18,,19.0,6294.63,6307.87,0.008054,-0.000358,0.008062,-2.548415,,,,
19,,20.0,5610.1,5613.43,0.008087,-0.000388,0.008096,-2.746553,,,,
20,,21.0,5000.005,4973.32,0.008124,-0.000419,0.008135,-2.955156,,,,
21,,22.0,4456.26,4456.02,0.008155,-0.000446,0.008168,-3.133658,,,,
22,,23.0,3971.65,3993.06,0.008185,-0.000474,0.008199,-3.314101,,,,
23,,24.0,3539.73,3530.09,0.00822,-0.000507,0.008236,-3.531939,,,,
24,,25.0,3154.79,3144.05,0.008253,-0.000541,0.008271,-3.748046,,,,
25,,26.0,2811.71,2801.07,0.00829,-0.000573,0.008309,-3.951906,,,,
26,,27.0,2505.94,2519.53,0.008324,-0.000605,0.008346,-4.157486,,,,
27,,28.0,2233.42,2229.42,0.008365,-0.000641,0.00839,-4.384628,,,,
28,,29.0,1990.54,2000.76,0.008404,-0.000679,0.008431,-4.618784,,,,
29,,30.0,1774.07,1772.1,0.008449,-0.00072,0.00848,-4.872818,,,,
30,,31.0,1581.14,1582.03,0.008495,-0.000762,0.008529,-5.126587,,,,
31,,32.0,1409.19,1411.9,0.008543,-0.000804,0.008581,-5.375942,,,,
32,,33.0,1255.94,1253.63,0.008597,-0.00085,0.008639,-5.644463,,,,
33,,34.0,1119.36,1118.61,0.008653,-0.000897,0.008699,-5.920584,,,,
34,,35.0,997.632,1000.7,0.008708,-0.000946,0.008759,-6.2032,,,,
35,,36.0,889.141,885.417,0.008779,-0.001005,0.008836,-6.528518,,,,
36,,37.0,792.447,790.028,0.008844,-0.001056,0.008907,-6.808774,,,,
37,,38.0,706.269,708.576,0.008915,-0.001109,0.008984,-7.090759,,,,
38,,39.0,629.463,628.811,0.008998,-0.001164,0.009073,-7.369514,,,,
39,,40.0,561.01,560.462,0.009077,-0.001212,0.009158,-7.603537,,,,
40,,41.0,500.0005,502.232,0.009168,-0.001282,0.009257,-7.962683,,,,
41,,42.0,445.626,444.079,0.009268,-0.001348,0.009365,-8.274328,,,,
42,,43.0,397.165,395.331,0.009363,-0.001416,0.009469,-8.602688,,,,
43,,44.0,353.973,352.823,0.009483,-0.001468,0.009596,-8.797191,,,,
44,,45.0,315.479,315.505,0.009594,-0.001525,0.009715,-9.033222,,,,
45,,46.0,281.171,282.38,0.00971,-0.001582,0.009838,-9.255137,,,,
46,,47.0,250.594,249.335,0.009845,-0.001648,0.009982,-9.50275,,,,
47,,48.0,223.342,223.214,0.00999,-0.001696,0.010133,-9.635869,,,,
48,,49.0,199.054,198.623,0.010129,-0.001752,0.01028,-9.812785,,,,
49,,50.0,177.407,177.557,0.01028,-0.001794,0.010435,-9.901389,,,,
50,,51.0,158.114,158.006,0.010444,-0.001841,0.010605,-9.996307,,,,
51,,52.0,140.919,140.625,0.010612,-0.001873,0.010776,-10.00915,,,,
52,,53.0,125.594,125.558,0.010783,-0.001894,0.010948,-9.963588,,,,
53,,54.0,111.936,111.607,0.010944,-0.001915,0.01111,-9.923636,,,,
54,,55.0,99.7632,99.734,0.011109,-0.001905,0.011271,-9.730783,,,,
55,,56.0,88.9141,89.2857,0.011306,-0.00192,0.011468,-9.637884,,,,
56,,57.0,79.2447,79.44915,0.011473,-0.001886,0.011627,-9.332994,,,,
57,,58.0,70.6269,70.4887,0.011655,-0.001863,0.011803,-9.081982,,,,
58,,59.0,62.9463,62.9195,0.011848,-0.00182,0.011987,-8.732667,,,,
59,,60.0,56.101,55.80357,0.012012,-0.001708,0.012133,-8.094629,,,,
60,,61.0,50.00005,49.86702,0.012191,-0.001738,0.012314,-8.115099,,,,
61,,62.0,44.5626,44.6429,0.012266,-0.001714,0.012385,-7.953906,,,,
62,,63.0,39.7165,39.7246,0.012441,-0.001594,0.012543,-7.302313,,,,
63,,64.0,35.3973,35.5114,0.012522,-0.00154,0.012617,-7.013167,,,,
64,,65.0,31.5479,31.4597,0.012646,-0.001456,0.012729,-6.565693,,,,
65,,66.0,28.1171,28.238,0.012699,-0.001427,0.012779,-6.412294,,,,
66,,67.0,25.0594,24.93351,0.012795,-0.00138,0.012869,-6.15362,,,,
67,,68.0,22.3342,22.3214,0.012901,-0.001363,0.012973,-6.031859,,,,
68,,69.0,19.9054,19.8623,0.012973,-0.001281,0.013036,-5.640133,,,,
69,,70.0,17.7407,17.7557,0.013047,-0.001261,0.013108,-5.522057,,,,
70,,71.0,15.8114,15.7828,0.013102,-0.001172,0.013155,-5.110975,,,,
71,,72.0,14.0919,14.119,0.013242,-0.001234,0.0133,-5.322691,,,,
72,,73.0,12.5594,12.6008,0.013212,-0.001143,0.013261,-4.944209,,,,
73,,74.0,11.1936,11.1607,0.01338,-0.001147,0.013429,-4.900549,,,,
74,,75.0,9.976322,9.973404,0.01348,-0.001081,0.013524,-4.584681,,,,
75,,76.0,8.891406,8.877841,0.013589,-0.001102,0.013633,-4.637571,,,,
76,,77.0,7.924474,7.878151,0.013714,-0.001159,0.013763,-4.83249,,,,
77,,78.0,7.062695,7.059488,0.013791,-0.001034,0.01383,-4.285767,,,,
78,,79.0,6.294633,6.2751,0.013894,-0.001003,0.01393,-4.130244,,,,
79,,80.0,5.610098,5.580357,0.014006,-0.000927,0.014037,-3.786338,,,,
80,,81.0,5.000005,5.013369,0.014019,-0.000912,0.014049,-3.723243,,,,
81,,82.0,4.456259,4.451567,0.014129,-0.000837,0.014154,-3.391871,,,,
82,,83.0,3.971645,3.985969,0.014223,-0.000807,0.014246,-3.248161,,,,
83,,84.0,3.539732,3.529744,0.01427,-0.000685,0.014286,-2.750104,,,,
84,,85.0,3.15479,3.13755,0.014252,-0.000548,0.014263,-2.203888,,,,
85,,86.0,2.811709,2.823795,0.014303,-0.000533,0.014313,-2.132137,,,,
86,,87.0,2.505939,2.516103,0.014325,-0.000487,0.014333,-1.947021,,,,
87,,88.0,2.23342,2.225784,0.014372,-0.000416,0.014378,-1.656869,,,,
88,,89.0,1.990538,1.99553,0.014382,-0.000233,0.014384,-0.927527,,,,
89,,90.0,1.774069,1.775568,0.014401,-0.000222,0.014403,-0.884962,,,,
90,,91.0,1.58114,1.583615,0.01442,-0.000157,0.014421,-0.625717,,,,
91,,92.0,1.409193,1.411472,0.014393,-8.399409e-05,0.014394,-0.33435,,,,
92,,93.0,1.255944,1.258052,0.014354,-2.96624e-05,0.014354,-0.118401,,,,
93,,94.0,1.119362,1.112892,0.014352,-1.987869e-05,0.014352,-0.079361,,,,
94,,95.0,0.997632,0.997765,0.014317,7.356935e-05,0.014317,0.294411,,,,
95,,96.0,0.889141,0.890313,0.014277,0.000112,0.014278,0.450681,,,,
96,,97.0,0.792447,0.792745,0.014234,0.00015,0.014235,0.602947,,,,
97,,98.0,0.706269,0.705736,0.01425,0.00016,0.01425,0.644969,,,,
98,,99.0,0.629463,0.63004,0.014183,0.000217,0.014185,0.877344,,,,
99,,100.0,0.56101,0.563401,0.014174,0.000243,0.014176,0.984057,,,,
100,,101.0,0.500001,0.500801,0.014116,0.000282,0.014119,1.143397,,,,
101,,102.0,0.445626,0.447281,0.014051,0.00032,0.014055,1.304298,,,,
102,,103.0,0.397165,0.398597,0.014046,0.000319,0.014049,1.299952,,,,
103,,104.0,0.353973,0.355114,0.01397,0.000377,0.013975,1.54517,,,,
104,,105.0,0.315479,0.316723,0.013953,0.000377,0.013958,1.545858,,,,
105,,106.0,0.281171,0.281701,0.013889,0.000386,0.013895,1.59146,,,,
106,,107.0,0.250594,0.251475,0.01382,0.000416,0.013826,1.723537,,,,
107,,108.0,0.223342,0.22364,0.013774,0.000436,0.013781,1.81201,,,,
108,,109.0,0.199054,0.199298,0.013711,0.000439,0.013718,1.835371,,,,
109,,110.0,0.177407,0.177557,0.013657,0.00045,0.013664,1.887209,,,,
110,,111.0,0.158114,0.158361,0.013584,0.000463,0.013592,1.95203,,,,
111,,112.0,0.140919,0.14119,0.013514,0.000484,0.013523,2.049811,,,,
112,,113.0,0.125594,0.125738,0.013442,0.000511,0.013451,2.179246,,,,
113,,114.0,0.111936,0.112034,0.013369,0.000523,0.013379,2.238345,,,,