Folder: dashboard_maxcoat2/data/dashdata (part 2)

File: EIS#3_maxcoat_ss_coating_#01_EIS_1.1_25A_1,25A_EIS_22-08-05_1814_001.txt
,index,datapoints [#],time [s],frequency [Hz],Z_real [Ohm],Z_imag [Ohm],Z_sig [V],Zmod [ohm],Z_phz [Â°C],I_DC [A],V_DC [V],IE_Range [#]
0,,1.0,50000.05,50097.7,0.007463,0.001275,0.007571,9.693356,,,,
1,,2.0,44562.6,44589.8,0.007444,0.001115,0.007527,8.52014,,,,
2,,3.0,39716.5,39785.2,0.007416,0.00096,0.007478,7.377364,,,,
3,,4.0,35397.3,35449.2,0.007388,0.000794,0.007431,6.135585,,,,
4,,5.0,31547.9,31582,0.007369,0.000624,0.007396,4.838577,,,,
5,,6.0,28117.1,28183.6,0.007386,0.000437,0.007399,3.384647,,,,
6,,7.0,25059.4,25136.7,0.007445,0.000271,0.00745,2.085759,,,,
7,,8.0,22334.2,22441.4,0.007512,0.000148,0.007514,1.129562,,,,
8,,9.0,19905.4,19980.5,0.007609,5.450755e-05,0.007609,0.410426,,,,
9,,10.0,17740.7,17753.9,0.007663,-1.524218e-05,0.007663,-0.113972,,,,
10,,11.0,15811.4,15878.9,0.00772,-7.122329e-05,0.00772,-0.528612,,,,
11,,12.0,14091.9,14121.1,0.007773,-0.000114,0.007773,-0.842923,,,,
12,,13.0,12559.4,12597.7,0.007815,-0.000155,0.007816,-1.132866,,,,
13,,14.0,11193.6,11169,0.007858,-0.000192,0.00786,-1.401366,,,,
14,,15.0,9976.32,10019.5,0.007887,-0.000222,0.00789,-1.608722,,,,
15,,16.0,8891.41,8854.17,0.007926,-0.000258,0.00793,-1.860977,,,,
16,,17.0,7924.47,7928.24,0.007958,-0.00029,0.007963,-2.089758,,,,
17,,18.0,7062.69,7089.84,0.007989,-0.000321,0.007996,-2.300387,,,,
18,,19.0,6294.63,6307.87,0.008022,-0.000345,0.008029,-2.462584,,,,
19,,20.0,5610.1,5613.43,0.008038,-0.000394,0.008048,-2.804044,,,,
20,,21.0,5000.005,4973.32,0.008085,-0.000408,0.008095,-2.891576,,,,
21,,22.0,4456.26,4456.02,0.008116,-0.000436,0.008128,-3.078213,,,,
22,,23.0,3971.65,3993.06,0.008147,-0.000464,0.00816,-3.259623,,,,
23,,24.0,3539.73,3530.09,0.008181,-0.000496,0.008196,-3.472698,,,,
24,,25.0,3154.79,3144.05,0.008215,-0.000529,0.008232,-3.685653,,,,
25,,26.0,2811.71,2801.07,0.00825,-0.000562,0.008269,-3.900479,,,,
26,,27.0,2505.94,2519.53,0.008283,-0.000594,0.008305,-4.100388,,,,
27,,28.0,2233.42,2229.42,0.008325,-0.000632,0.008349,-4.341828,,,,
28,,29.0,1990.54,2000.76,0.008359,-0.000669,0.008386,-4.573619,,,,
29,,30.0,1774.07,1772.1,0.008408,-0.000709,0.008438,-4.819572,,,,
30,,31.0,1581.14,1582.03,0.008451,-0.000749,0.008485,-5.067187,,,,
31,,32.0,1409.19,1411.9,0.008501,-0.000794,0.008538,-5.334746,,,,
32,,33.0,1255.94,1253.63,0.008551,-0.000842,0.008593,-5.624112,,,,
33,,34.0,1119.36,1118.61,0.008608,-0.000892,0.008654,-5.914501,,,,
34,,35.0,997.632,1000.7,0.008663,-0.000942,0.008715,-6.20385,,,,
35,,36.0,889.141,885.417,0.008731,-0.000994,0.008787,-6.492248,,,,
36,,37.0,792.447,790.028,0.008799,-0.001052,0.008861,-6.820527,,,,
37,,38.0,706.269,708.576,0.008866,-0.001106,0.008935,-7.11375,,,,
38,,39.0,629.463,628.811,0.008949,-0.001164,0.009025,-7.413256,,,,
39,,40.0,561.01,560.462,0.009032,-0.001226,0.009114,-7.72807,,,,
40,,41.0,500.0005,502.232,0.00912,-0.001294,0.009211,-8.077182,,,,
41,,42.0,445.626,444.079,0.00922,-0.001357,0.009319,-8.374976,,,,
42,,43.0,397.165,395.331,0.009322,-0.001422,0.009429,-8.676362,,,,
43,,44.0,353.973,352.823,0.009432,-0.001484,0.009549,-8.942389,,,,
44,,45.0,315.479,315.505,0.009542,-0.001547,0.009667,-9.208998,,,,
45,,46.0,281.171,282.38,0.009669,-0.001608,0.009802,-9.441544,,,,
46,,47.0,250.594,249.335,0.00981,-0.001676,0.009952,-9.693023,,,,
47,,48.0,223.342,223.214,0.009944,-0.001736,0.010094,-9.903023,,,,
48,,49.0,199.054,198.623,0.010093,-0.001784,0.010249,-10.0233,,,,
49,,50.0,177.407,177.557,0.010249,-0.001837,0.010413,-10.1605,,,,
50,,51.0,158.114,158.006,0.010419,-0.001879,0.010588,-10.2247,,,,
51,,52.0,140.919,140.625,0.010593,-0.001913,0.010764,-10.2387,,,,
52,,53.0,125.594,125.558,0.010754,-0.001935,0.010927,-10.20013,,,,
53,,54.0,111.936,111.607,0.010954,-0.001962,0.011128,-10.15416,,,,
54,,55.0,99.7632,99.734,0.011137,-0.001933,0.011303,-9.845845,,,,
55,,56.0,88.9141,89.2857,0.01132,-0.001968,0.01149,-9.861148,,,,
56,,57.0,79.2447,79.44915,0.011477,-0.00193,0.011638,-9.548323,,,,
57,,58.0,70.6269,70.4887,0.011697,-0.001911,0.011853,-9.280381,,,,
58,,59.0,62.9463,62.9195,0.01183,-0.001841,0.011973,-8.843691,,,,
59,,60.0,56.101,55.80357,0.012061,-0.001871,0.012205,-8.817284,,,,
60,,61.0,50.00005,49.86702,0.012271,-0.001802,0.012402,-8.353606,,,,
61,,62.0,44.5626,44.6429,0.012326,-0.001703,0.012443,-7.864973,,,,
62,,63.0,39.7165,39.7246,0.01244,-0.001627,0.012546,-7.451416,,,,
63,,64.0,35.3973,35.5114,0.012577,-0.001583,0.012677,-7.175724,,,,
64,,65.0,31.5479,31.4597,0.012681,-0.001497,0.012769,-6.734399,,,,
65,,66.0,28.1171,28.238,0.012716,-0.001404,0.012794,-6.298541,,,,
66,,67.0,25.0594,24.93351,0.012861,-0.001432,0.01294,-6.352793,,,,
67,,68.0,22.3342,22.3214,0.012905,-0.001409,0.012982,-6.230835,,,,
68,,69.0,19.9054,19.8623,0.01307,-0.001266,0.013131,-5.533102,,,,
69,,70.0,17.7407,17.7557,0.013045,-0.001287,0.013109,-5.635015,,,,
70,,71.0,15.8114,15.7828,0.013204,-0.001194,0.013258,-5.166205,,,,
71,,72.0,14.0919,14.119,0.013235,-0.001282,0.013296,-5.531938,,,,
72,,73.0,12.5594,12.6008,0.013352,-0.001255,0.013411,-5.370352,,,,
73,,74.0,11.1936,11.1607,0.013442,-0.001181,0.013494,-5.022512,,,,
74,,75.0,9.976322,9.973404,0.013425,-0.001176,0.013476,-5.006887,,,,
75,,76.0,8.891406,8.877841,0.013622,-0.001126,0.013669,-4.726408,,,,
76,,77.0,7.924474,7.878151,0.013732,-0.001054,0.013772,-4.38854,,,,
77,,78.0,7.062695,7.059488,0.013839,-0.001028,0.013877,-4.250361,,,,
78,,79.0,6.294633,6.2751,0.013945,-0.001073,0.013987,-4.400975,,,,
79,,80.0,5.610098,5.580357,0.01406,-0.000949,0.014092,-3.861564,,,,
80,,81.0,5.000005,5.013369,0.014148,-0.000927,0.014178,-3.749301,,,,
81,,82.0,4.456259,4.451567,0.014177,-0.000779,0.014198,-3.146351,,,,
82,,83.0,3.971645,3.985969,0.014273,-0.000695,0.01429,-2.787238,,,,
83,,84.0,3.539732,3.529744,0.014287,-0.000649,0.014302,-2.602464,,,,
84,,85.0,3.15479,3.13755,0.014357,-0.000546,0.014367,-2.177383,,,,
85,,86.0,2.811709,2.823795,0.014287,-0.000518,0.014297,-2.075116,,,,
86,,87.0,2.505939,2.516103,0.014387,-0.000375,0.014392,-1.491844,,,,
87,,88.0,2.23342,2.225784,0.014391,-0.000286,0.014394,-1.13919,,,,
88,,89.0,1.990538,1.99553,0.014445,-0.000305,0.014448,-1.207722,,,,
89,,90.0,1.774069,1.775568,0.014426,-0.000235,0.014428,-0.934038,,,,
90,,91.0,1.58114,1.583615,0.014405,-0.000174,0.014406,-0.692061,,,,
91,,92.0,1.409193,1.411472,0.014434,-0.000151,0.014435,-0.599945,,,,
92,,93.0,1.255944,1.258052,0.014417,-5.911348e-05,0.014417,-0.23493,,,,
93,,94.0,1.119362,1.112892,0.014347,3.402267e-05,0.014347,0.135873,,,,
94,,95.0,0.997632,0.997765,0.014357,-8.195619e-06,0.014357,-0.032706,,,,
95,,96.0,0.889141,0.890313,0.014392,0.000125,0.014393,0.497238,,,,
96,,97.0,0.792447,0.792745,0.014307,0.000134,0.014308,0.536345,,,,
97,,98.0,0.706269,0.705736,0.014304,0.000178,0.014305,0.711976,,,,
98,,99.0,0.629463,0.63004,0.014264,0.000234,0.014266,0.939681,,,,
99,,100.0,0.56101,0.563401,0.014234,0.000262,0.014237,1.054389,,,,
100,,101.0,0.500001,0.500801,0.014162,0.000295,0.014165,1.192427,,,,
101,,102.0,0.445626,0.447281,0.014146,0.000315,0.01415,1.276945,,,,
102,,103.0,0.397165,0.398597,0.014086,0.000377,0.014091,1.531666,,,,
103,,104.0,0.353973,0.355114,0.014072,0.000342,0.014076,1.391183,,,,
104,,105.0,0.315479,0.316723,0.013999,0.000358,0.014004,1.462877,,,,
105,,106.0,0.281171,0.281701,0.013915,0.000395,0.013921,1.624259,,,,
106,,107.0,0.250594,0.251475,0.013911,0.000415,0.013917,1.70955,,,,
107,,108.0,0.223342,0.22364,0.013862,0.000433,0.013869,1.789295,,,,
108,,109.0,0.199054,0.199298,0.013793,0.00048,0.013801,1.993082,,,,
109,,110.0,0.177407,0.177557,0.013757,0.000413,0.013764,1.718921,,,,
110,,111.0,0.158114,0.158361,0.013666,0.000467,0.013674,1.958764,,,,
111,,112.0,0.140919,0.14119,0.013591,0.00048,0.013599,2.020725,,,,
112,,113.0,0.125594,0.125738,0.013528,0.000495,0.013537,2.09612,,,,
113,,114.0,0.111936,0.112034,0.01348,0.000519,0.01349,2.206514,,,,

File: EIS#4_maxcoat_ss_coating_#01_EIS_1.1_25A_1,25A_EIS_22-08-07_0535_001.txt
,index,datapoints [#],time [s],frequency [Hz],Z_real [Ohm],Z_imag [Ohm],Z_sig [V],Zmod [ohm],Z_phz [Â°C],I_DC [A],V_DC [V],IE_Range [#]
0,,1.0,50000.05,50097.7,0.007706,0.001277,0.007811,9.410186,,,,
1,,2.0,44562.6,44589.8,0.007683,0.001118,0.007764,8.276738,,,,
2,,3.0,39716.5,39785.2,0.007652,0.000963,0.007712,7.176618,,,,
3,,4.0,35397.3,35449.2,0.007618,0.000795,0.007659,5.955873,,,,
4,,5.0,31547.9,31582,0.007599,0.000611,0.007624,4.600623,,,,
5,,6.0,28117.1,28183.6,0.007614,0.000427,0.007626,3.210455,,,,
6,,7.0,25059.4,25136.7,0.007669,0.000257,0.007674,1.918477,,,,
7,,8.0,22334.2,22441.4,0.007736,0.000116,0.007736,0.859401,,,,
8,,9.0,19905.4,19980.5,0.007842,4.210266e-05,0.007843,0.307593,,,,
9,,10.0,17740.7,17753.9,0.007897,-3.225662e-05,0.007897,-0.23404,,,,
10,,11.0,15811.4,15878.9,0.007961,-8.282885e-05,0.007962,-0.59608,,,,
11,,12.0,14091.9,14121.1,0.008013,-0.000139,0.008015,-0.995738,,,,
12,,13.0,12559.4,12597.7,0.008055,-0.000166,0.008057,-1.182334,,,,
13,,14.0,11193.6,11169,0.008095,-0.000203,0.008098,-1.435238,,,,
14,,15.0,9976.32,10019.5,0.008124,-0.000228,0.008127,-1.605506,,,,
15,,16.0,8891.41,8854.17,0.008162,-0.000273,0.008167,-1.916423,,,,
16,,17.0,7924.47,7928.24,0.008193,-0.000299,0.008198,-2.091284,,,,
17,,18.0,7062.69,7089.84,0.008222,-0.000326,0.008229,-2.272356,,,,
18,,19.0,6294.63,6307.87,0.008254,-0.000355,0.008262,-2.465709,,,,
19,,20.0,5610.1,5613.43,0.008284,-0.000381,0.008292,-2.63406,,,,
20,,21.0,5000.005,4973.32,0.008321,-0.000412,0.008331,-2.836825,,,,
21,,22.0,4456.26,4456.02,0.00835,-0.000442,0.008362,-3.031765,,,,
22,,23.0,3971.65,3993.06,0.008379,-0.000466,0.008392,-3.186729,,,,
23,,24.0,3539.73,3530.09,0.008411,-0.000501,0.008426,-3.407145,,,,
24,,25.0,3154.79,3144.05,0.008444,-0.000533,0.008461,-3.61133,,,,
25,,26.0,2811.71,2801.07,0.008478,-0.000567,0.008497,-3.827442,,,,
26,,27.0,2505.94,2519.53,0.008509,-0.000598,0.00853,-4.016928,,,,
27,,28.0,2233.42,2229.42,0.008548,-0.000637,0.008572,-4.258664,,,,
28,,29.0,1990.54,2000.76,0.008588,-0.000674,0.008614,-4.490665,,,,
29,,30.0,1774.07,1772.1,0.00863,-0.000715,0.00866,-4.736657,,,,
30,,31.0,1581.14,1582.03,0.008675,-0.000756,0.008708,-4.98294,,,,
31,,32.0,1409.19,1411.9,0.00872,-0.0008,0.008756,-5.243541,,,,
32,,33.0,1255.94,1253.63,0.008773,-0.000851,0.008814,-5.541335,,,,
33,,34.0,1119.36,1118.61,0.008823,-0.0009,0.008869,-5.824235,,,,
34,,35.0,997.632,1000.7,0.008878,-0.000952,0.008929,-6.122594,,,,
35,,36.0,889.141,885.417,0.008943,-0.00101,0.009,-6.442694,,,,
36,,37.0,792.447,790.028,0.009008,-0.001064,0.009071,-6.734321,,,,
37,,38.0,706.269,708.576,0.009075,-0.00112,0.009143,-7.033802,,,,
38,,39.0,629.463,628.811,0.009161,-0.001181,0.009236,-7.34581,,,,
39,,40.0,561.01,560.462,0.00924,-0.001247,0.009324,-7.685657,,,,
40,,41.0,500.0005,502.232,0.009325,-0.001315,0.009417,-8.027894,,,,
41,,42.0,445.626,444.079,0.009427,-0.001386,0.009528,-8.362222,,,,
42,,43.0,397.165,395.331,0.009532,-0.001451,0.009642,-8.654675,,,,
43,,44.0,353.973,352.823,0.009637,-0.00152,0.009756,-8.963338,,,,
44,,45.0,315.479,315.505,0.009749,-0.001584,0.009877,-9.231683,,,,
45,,46.0,281.171,282.38,0.009872,-0.001654,0.010009,-9.510165,,,,
46,,47.0,250.594,249.335,0.010016,-0.00172,0.010163,-9.745855,,,,
47,,48.0,223.342,223.214,0.010155,-0.001787,0.010311,-9.981989,,,,
48,,49.0,199.054,198.623,0.010313,-0.001844,0.010476,-10.1383,,,,
49,,50.0,177.407,177.557,0.010467,-0.001895,0.010637,-10.2629,,,,
50,,51.0,158.114,158.006,0.010636,-0.001946,0.010813,-10.3686,,,,
51,,52.0,140.919,140.625,0.010819,-0.001984,0.010999,-10.3923,,,,
52,,53.0,125.594,125.558,0.011,-0.002009,0.011182,-10.3514,,,,
53,,54.0,111.936,111.607,0.011183,-0.002032,0.011366,-10.3004,,,,
54,,55.0,99.7632,99.734,0.011384,-0.002048,0.011566,-10.1997,,,,
55,,56.0,88.9141,89.2857,0.01155,-0.002047,0.01173,-10.052,,,,
56,,57.0,79.2447,79.44915,0.011726,-0.00201,0.011897,-9.728614,,,,
57,,58.0,70.6269,70.4887,0.011971,-0.001981,0.012134,-9.395082,,,,
58,,59.0,62.9463,62.9195,0.012101,-0.001924,0.012253,-9.03414,,,,
59,,60.0,56.101,55.80357,0.012357,-0.001874,0.012499,-8.623226,,,,
60,,61.0,50.00005,49.86702,0.012382,-0.001896,0.012527,-8.703971,,,,
61,,62.0,44.5626,44.6429,0.012565,-0.001828,0.012697,-8.277512,,,,
62,,63.0,39.7165,39.7246,0.012732,-0.00172,0.012847,-7.695905,,,,
63,,64.0,35.3973,35.5114,0.012866,-0.00164,0.01297,-7.263473,,,,
64,,65.0,31.5479,31.4597,0.012962,-0.001603,0.01306,-7.047974,,,,
65,,66.0,28.1171,28.238,0.013047,-0.001519,0.013135,-6.642633,,,,
66,,67.0,25.0594,24.93351,0.013172,-0.001454,0.013253,-6.30062,,,,
67,,68.0,22.3342,22.3214,0.013226,-0.001449,0.013306,-6.251614,,,,
68,,69.0,19.9054,19.8623,0.013278,-0.001424,0.013355,-6.122732,,,,
69,,70.0,17.7407,17.7557,0.013416,-0.001325,0.013481,-5.639657,,,,
70,,71.0,15.8114,15.7828,0.013449,-0.001335,0.013515,-5.670623,,,,
71,,72.0,14.0919,14.119,0.013588,-0.001279,0.013648,-5.376654,,,,
72,,73.0,12.5594,12.6008,0.013662,-0.001286,0.013722,-5.375561,,,,
73,,74.0,11.1936,11.1607,0.013718,-0.00127,0.013777,-5.290747,,,,
74,,75.0,9.976322,9.973404,0.013838,-0.001223,0.013892,-5.049638,,,,
75,,76.0,8.891406,8.877841,0.014038,-0.001209,0.01409,-4.920736,,,,
76,,77.0,7.924474,7.878151,0.01406,-0.001168,0.014109,-4.75051,,,,
77,,78.0,7.062695,7.059488,0.014162,-0.001172,0.014211,-4.732558,,,,
78,,79.0,6.294633,6.2751,0.014287,-0.001056,0.014326,-4.225322,,,,
79,,80.0,5.610098,5.580357,0.014365,-0.000973,0.014398,-3.874398,,,,
80,,81.0,5.000005,5.013369,0.014446,-0.000923,0.014475,-3.657377,,,,
81,,82.0,4.456259,4.451567,0.014536,-0.000844,0.01456,-3.324293,,,,
82,,83.0,3.971645,3.985969,0.014586,-0.000796,0.014607,-3.125507,,,,
83,,84.0,3.539732,3.529744,0.014614,-0.000684,0.01463,-2.680703,,,,
84,,85.0,3.15479,3.13755,0.014686,-0.000606,0.014698,-2.362903,,,,
85,,86.0,2.811709,2.823795,0.014689,-0.000523,0.014699,-2.040887,,,,
86,,87.0,2.505939,2.516103,0.014745,-0.000498,0.014753,-1.934034,,,,
87,,88.0,2.23342,2.225784,0.01475,-0.000318,0.014754,-1.23681,,,,
88,,89.0,1.990538,1.99553,0.014761,-0.000293,0.014764,-1.136783,,,,
89,,90.0,1.774069,1.775568,0.014754,-0.000222,0.014756,-0.862847,,,,
90,,91.0,1.58114,1.583615,0.014736,-0.000139,0.014737,-0.540442,,,,
91,,92.0,1.409193,1.411472,0.014726,-0.000118,0.014726,-0.460065,,,,
92,,93.0,1.255944,1.258052,0.014693,-5.003763e-05,0.014693,-0.19512,,,,
93,,94.0,1.119362,1.112892,0.014693,2.751818e-05,0.014693,0.107305,,,,
94,,95.0,0.997632,0.997765,0.014648,3.342891e-05,0.014648,0.130756,,,,
95,,96.0,0.889141,0.890313,0.014605,9.84193e-05,0.014605,0.386094,,,,
96,,97.0,0.792447,0.792745,0.014591,0.000116,0.014591,0.455055,,,,
97,,98.0,0.706269,0.705736,0.014543,0.000185,0.014545,0.73064,,,,
98,,99.0,0.629463,0.63004,0.014492,0.000222,0.014494,0.875705,,,,
99,,100.0,0.56101,0.563401,0.014432,0.000234,0.014434,0.928916,,,,
100,,101.0,0.500001,0.500801,0.014391,0.000279,0.014394,1.109055,,,,
101,,102.0,0.445626,0.447281,0.014345,0.000297,0.014349,1.185362,,,,
102,,103.0,0.397165,0.398597,0.014276,0.000307,0.014279,1.232518,,,,
103,,104.0,0.353973,0.355114,0.014216,0.000321,0.01422,1.295031,,,,
104,,105.0,0.315479,0.316723,0.01416,0.000365,0.014165,1.475711,,,,
105,,106.0,0.281171,0.281701,0.014103,0.000387,0.014108,1.571411,,,,
106,,107.0,0.250594,0.251475,0.014053,0.000389,0.014058,1.585413,,,,
107,,108.0,0.223342,0.22364,0.013975,0.000416,0.013981,1.704809,,,,
108,,109.0,0.199054,0.199298,0.013914,0.000416,0.01392,1.713092,,,,
109,,110.0,0.177407,0.177557,0.013845,0.00044,0.013852,1.818905,,,,
110,,111.0,0.158114,0.158361,0.013794,0.000471,0.013802,1.955507,,,,
111,,112.0,0.140919,0.14119,0.013722,0.000469,0.01373,1.956909,,,,
112,,113.0,0.125594,0.125738,0.013743,0.000502,0.013752,2.093901,,,,
113,,114.0,0.111936,0.112034,0.013624,0.000505,0.013633,2.123876,,,,

File: EIS#5_maxcoat_ss_coating_#01_EIS_1.1_25A_1,25A_EIS_22-08-08_0839_001.txt
,index,datapoints [#],time [s],frequency [Hz],Z_real [Ohm],Z_imag [Ohm],Z_sig [V],Zmod [ohm],Z_phz [Â°C],I_DC [A],V_DC [V],IE_Range [#]
0,,1.0,50000.05,50097.7,0.007741,0.001295,0.007849,9.497602,,,,
1,,2.0,44562.6,44589.8,0.007722,0.001138,0.007805,8.382896,,,,
2,,3.0,39716.5,39785.2,0.007685,0.000981,0.007747,7.276646,,,,
3,,4.0,35397.3,35449.2,0.007654,0.000814,0.007697,6.072874,,,,
4,,5.0,31547.9,31582,0.007632,0.000633,0.007658,4.741198,,,,
5,,6.0,28117.1,28183.6,0.007649,0.000443,0.007662,3.313401,,,,
6,,7.0,25059.4,25136.7,0.0077,0.000276,0.007704,2.052409,,,,
7,,8.0,22334.2,22441.4,0.007792,0.000161,0.007793,1.181814,,,,
8,,9.0,19905.4,19980.5,0.007869,6.029469e-05,0.007869,0.439022,,,,
9,,10.0,17740.7,17753.9,0.007922,-1.227637e-05,0.007922,-0.088784,,,,
10,,11.0,15811.4,15878.9,0.007978,-5.865157e-05,0.007979,-0.421188,,,,
11,,12.0,14091.9,14121.1,0.008037,-0.000105,0.008038,-0.751302,,,,
12,,13.0,12559.4,12597.7,0.008075,-0.000143,0.008076,-1.017608,,,,
13,,14.0,11193.6,11169,0.008115,-0.000181,0.008117,-1.274996,,,,
14,,15.0,9976.32,10019.5,0.008148,-0.000208,0.008151,-1.464815,,,,
15,,16.0,8891.41,8854.17,0.008176,-0.000246,0.00818,-1.72288,,,,
16,,17.0,7924.47,7928.24,0.008207,-0.000271,0.008211,-1.893663,,,,
17,,18.0,7062.69,7089.84,0.008243,-0.000297,0.008248,-2.063884,,,,
18,,19.0,6294.63,6307.87,0.008265,-0.00033,0.008272,-2.289867,,,,
19,,20.0,5610.1,5613.43,0.008299,-0.000359,0.008306,-2.476484,,,,
20,,21.0,5000.005,4973.32,0.008331,-0.000387,0.00834,-2.656931,,,,
21,,22.0,4456.26,4456.02,0.00836,-0.000412,0.00837,-2.822474,,,,
22,,23.0,3971.65,3993.06,0.008386,-0.00044,0.008398,-3.000561,,,,
23,,24.0,3539.73,3530.09,0.008417,-0.00047,0.00843,-3.198599,,,,
24,,25.0,3154.79,3144.05,0.008448,-0.000502,0.008463,-3.402716,,,,
25,,26.0,2811.71,2801.07,0.008479,-0.000534,0.008496,-3.605889,,,,
26,,27.0,2505.94,2519.53,0.008509,-0.000566,0.008528,-3.802614,,,,
27,,28.0,2233.42,2229.42,0.008546,-0.000603,0.008567,-4.036063,,,,
28,,29.0,1990.54,2000.76,0.008585,-0.000634,0.008608,-4.226918,,,,
29,,30.0,1774.07,1772.1,0.008621,-0.00068,0.008648,-4.509296,,,,
30,,31.0,1581.14,1582.03,0.00866,-0.000721,0.00869,-4.756142,,,,
31,,32.0,1409.19,1411.9,0.008704,-0.000766,0.008738,-5.028908,,,,
32,,33.0,1255.94,1253.63,0.00875,-0.000813,0.008787,-5.306424,,,,
33,,34.0,1119.36,1118.61,0.008798,-0.000864,0.008841,-5.608163,,,,
34,,35.0,997.632,1000.7,0.008851,-0.000917,0.008898,-5.914254,,,,
35,,36.0,889.141,885.417,0.008908,-0.000977,0.008962,-6.260617,,,,
36,,37.0,792.447,790.028,0.008973,-0.001036,0.009032,-6.58527,,,,
37,,38.0,706.269,708.576,0.009038,-0.001091,0.009104,-6.884359,,,,
38,,39.0,629.463,628.811,0.009112,-0.001159,0.009186,-7.245952,,,,
39,,40.0,561.01,560.462,0.009193,-0.001226,0.009274,-7.598342,,,,
40,,41.0,500.0005,502.232,0.009272,-0.001301,0.009363,-7.987844,,,,
41,,42.0,445.626,444.079,0.009366,-0.001379,0.009467,-8.375094,,,,
42,,43.0,397.165,395.331,0.009471,-0.001454,0.009582,-8.729737,,,,
43,,44.0,353.973,352.823,0.009579,-0.001534,0.009701,-9.095744,,,,
44,,45.0,315.479,315.505,0.009693,-0.001607,0.009826,-9.410253,,,,
45,,46.0,281.171,282.38,0.009812,-0.001681,0.009955,-9.72054,,,,
46,,47.0,250.594,249.335,0.009966,-0.001773,0.010123,-10.08829,,,,
47,,48.0,223.342,223.214,0.010107,-0.001837,0.010273,-10.2999,,,,
48,,49.0,199.054,198.623,0.01026,-0.001914,0.010437,-10.5643,,,,
49,,50.0,177.407,177.557,0.01043,-0.001971,0.010614,-10.7029,,,,
50,,51.0,158.114,158.006,0.010615,-0.002028,0.010807,-10.8189,,,,
51,,52.0,140.919,140.625,0.01079,-0.002081,0.010989,-10.9176,,,,
52,,53.0,125.594,125.558,0.010989,-0.002117,0.011191,-10.9023,,,,
53,,54.0,111.936,111.607,0.011193,-0.002128,0.011394,-10.7634,,,,
54,,55.0,99.7632,99.734,0.011405,-0.002138,0.011604,-10.6198,,,,
55,,56.0,88.9141,89.2857,0.011558,-0.002164,0.011758,-10.6044,,,,
56,,57.0,79.2447,79.44915,0.011833,-0.002142,0.012026,-10.2599,,,,
57,,58.0,70.6269,70.4887,0.012005,-0.00211,0.012189,-9.969902,,,,
58,,59.0,62.9463,62.9195,0.012202,-0.002092,0.01238,-9.726267,,,,
59,,60.0,56.101,55.80357,0.012378,-0.001942,0.012529,-8.918111,,,,
60,,61.0,50.00005,49.86702,0.012582,-0.002,0.01274,-9.029911,,,,
61,,62.0,44.5626,44.6429,0.012735,-0.001925,0.01288,-8.595035,,,,
62,,63.0,39.7165,39.7246,0.012854,-0.001806,0.01298,-7.998562,,,,
63,,64.0,35.3973,35.5114,0.012973,-0.00176,0.013091,-7.724244,,,,
64,,65.0,31.5479,31.4597,0.013173,-0.001715,0.013284,-7.419074,,,,
65,,66.0,28.1171,28.238,0.01323,-0.001624,0.01333,-6.998014,,,,
66,,67.0,25.0594,24.93351,0.013327,-0.001536,0.013415,-6.574894,,,,
67,,68.0,22.3342,22.3214,0.013475,-0.001481,0.013557,-6.269989,,,,
68,,69.0,19.9054,19.8623,0.013488,-0.001439,0.013564,-6.087718,,,,
69,,70.0,17.7407,17.7557,0.01362,-0.001309,0.013683,-5.489913,,,,
70,,71.0,15.8114,15.7828,0.013682,-0.001356,0.013749,-5.658155,,,,
71,,72.0,14.0919,14.119,0.01379,-0.001294,0.013851,-5.362322,,,,
72,,73.0,12.5594,12.6008,0.013884,-0.001383,0.013952,-5.687139,,,,
73,,74.0,11.1936,11.1607,0.013952,-0.001294,0.014011,-5.299169,,,,
74,,75.0,9.976322,9.973404,0.014107,-0.001313,0.014168,-5.315915,,,,
75,,76.0,8.891406,8.877841,0.01421,-0.001284,0.014268,-5.161977,,,,
76,,77.0,7.924474,7.878151,0.01424,-0.00124,0.014294,-4.978293,,,,
77,,78.0,7.062695,7.059488,0.014392,-0.001116,0.014435,-4.435034,,,,
78,,79.0,6.294633,6.2751,0.014471,-0.001152,0.014516,-4.549773,,,,
79,,80.0,5.610098,5.580357,0.014524,-0.000965,0.014556,-3.801185,,,,
80,,81.0,5.000005,5.013369,0.014671,-0.000998,0.014705,-3.892838,,,,
81,,82.0,4.456259,4.451567,0.014784,-0.000854,0.014808,-3.307826,,,,
82,,83.0,3.971645,3.985969,0.014829,-0.000776,0.01485,-2.995641,,,,
83,,84.0,3.539732,3.529744,0.01484,-0.000727,0.014858,-2.805125,,,,
84,,85.0,3.15479,3.13755,0.014947,-0.0006,0.014959,-2.298078,,,,
85,,86.0,2.811709,2.823795,0.014948,-0.000532,0.014957,-2.039573,,,,
86,,87.0,2.505939,2.516103,0.014977,-0.000496,0.014985,-1.897696,,,,
87,,88.0,2.23342,2.225784,0.015005,-0.000354,0.015009,-1.353048,,,,
88,,89.0,1.990538,1.99553,0.014966,-0.000287,0.014969,-1.097643,,,,
89,,90.0,1.774069,1.775568,0.01496,-0.000239,0.014962,-0.916958,,,,
90,,91.0,1.58114,1.583615,0.014963,-0.000163,0.014964,-0.624259,,,,
91,,92.0,1.409193,1.411472,0.014934,-0.000109,0.014934,-0.419271,,,,
92,,93.0,1.255944,1.258052,0.014915,-3.075109e-05,0.014915,-0.11813,,,,
93,,94.0,1.119362,1.112892,0.014927,-9.329701e-06,0.014927,-0.03581,,,,
94,,95.0,0.997632,0.997765,0.014862,6.855775e-05,0.014862,0.264303,,,,
95,,96.0,0.889141,0.890313,0.014856,9.703321e-05,0.014857,0.374217,,,,
96,,97.0,0.792447,0.792745,0.014814,0.000114,0.014814,0.439774,,,,
97,,98.0,0.706269,0.705736,0.014767,0.000199,0.014769,0.772163,,,,
98,,99.0,0.629463,0.63004,0.014711,0.000215,0.014712,0.837372,,,,
99,,100.0,0.56101,0.563401,0.014674,0.000257,0.014677,1.003524,,,,
100,,101.0,0.500001,0.500801,0.014643,0.000283,0.014646,1.107207,,,,
101,,102.0,0.445626,0.447281,0.014562,0.000313,0.014565,1.230931,,,,
102,,103.0,0.397165,0.398597,0.014539,0.000321,0.014542,1.26674,,,,
103,,104.0,0.353973,0.355114,0.014502,0.000325,0.014505,1.283253,,,,
104,,105.0,0.315479,0.316723,0.014424,0.000368,0.014429,1.460044,,,,
105,,106.0,0.281171,0.281701,0.014376,0.000381,0.014381,1.517518,,,,
106,,107.0,0.250594,0.251475,0.014297,0.000398,0.014303,1.594191,,,,
107,,108.0,0.223342,0.22364,0.014248,0.000401,0.014254,1.613562,,,,
108,,109.0,0.199054,0.199298,0.014179,0.000444,0.014186,1.794326,,,,
109,,110.0,0.177407,0.177557,0.01411,0.000452,0.014117,1.835115,,,,
110,,111.0,0.158114,0.158361,0.014047,0.00047,0.014055,1.916393,,,,
111,,112.0,0.140919,0.14119,0.013993,0.000489,0.014001,2.002219,,,,
112,,113.0,0.125594,0.125738,0.01391,0.0005,0.013919,2.05713,,,,
113,,114.0,0.111936,0.112034,0.013853,0.000512,0.013863,2.114745,,,,